Folder: EISFitting

Note: COLUMBIA_TXT_example.txt
% Model:              bla (1).mph
% Version:            COMSOL 9.9.0.000
% Date:               bla
% Dimension:          bla
% Nodes:              bla
% Expressions:        bla
% Description:        bla
0.01           0.0026356686485835617     0.001118111736007475
0.015849   0.0025051017867690544     7.619724689444925E-4
0.02512     0.002429198091301589      5.228502889348092E-4

Note: DAHN_TXT_example.txt
freq/Hz	Re(Z)/Ohm	#NAME?	|Z|/Ohm	Phase(Z)/deg	time/s	<Ewe>/V	<I>/mA	cycle number	I Range	|Ewe|/V	|I|/A	Re(Y)/Ohm-1	Im(Y)/Ohm-1	|Y|/Ohm-1	Phase(Y)/deg	Re(Z)/Ohm * Area	-Im(z)/Ohm * Area	Re(Z)/Ohm * Area/2	-Im(z)/Ohm * Area/2
1.00E+05	0.0746	0.172	1.87E-01	-6.65E+01	2.80E+03	3.81E+00	-5.72E-01	6.00E+00	9	4.17E-03	2.23E-02	2.13E+00	4.90E+00	5.34E+00	6.65E+01	5.21454	12.0228	2.60727	6.0114
7.92E+04	0.105	0.155	1.87E-01	-5.59E+01	2.80E+03	3.81E+00	-3.49E-01	6.00E+00	9	9.20E-03	4.91E-02	3.00E+00	4.43E+00	5.34E+00	5.59E+01	7.3395	10.8345	3.66975	5.41725
6.27E+04	0.127	0.137	1.87E-01	-4.71E+01	2.80E+03	3.81E+00	-2.19E-01	6.00E+00	9	9.40E-03	5.04E-02	3.65E+00	3.93E+00	5.36E+00	4.71E+01	8.8773	9.5763	4.43865	4.78815
4.96E+04	0.144	0.12	1.88E-01	-3.97E+01	2.80E+03	3.81E+00	-1.82E-01	6.00E+00	9	1.06E-02	5.64E-02	4.10E+00	3.41E+00	5.33E+00	3.97E+01	10.0656	8.388	5.0328	4.194
3.93E+04	0.158	0.105	1.90E-01	-3.36E+01	2.80E+03	3.81E+00	-9.67E-02	6.00E+00	9	9.22E-03	4.86E-02	4.39E+00	2.92E+00	5.27E+00	3.36E+01	11.0442	7.3395	5.5221	3.66975
3.11E+04	0.169	0.0923	1.93E-01	-2.86E+01	2.80E+03	3.81E+00	-1.55E-01	6.00E+00	9	9.66E-03	5.01E-02	4.56E+00	2.49E+00	5.19E+00	2.86E+01	11.8131	6.45177	5.90655	3.225885
2.46E+04	0.178	0.0817	1.96E-01	-2.46E+01	2.81E+03	3.81E+00	-1.27E-01	6.00E+00	9	9.95E-03	5.08E-02	4.64E+00	2.13E+00	5.10E+00	2.46E+01	12.4422	5.71083	6.2211	2.855415
1.95E+04	0.186	0.0733	2.00E-01	-2.15E+01	2.81E+03	3.81E+00	-1.22E-01	6.00E+00	9	1.01E-02	5.07E-02	4.66E+00	1.84E+00	5.01E+00	2.15E+01	13.0014	5.12367	6.5007	2.561835
1.54E+04	0.192	0.0665	2.04E-01	-1.91E+01	2.81E+03	3.81E+00	-1.25E-01	6.00E+00	9	1.03E-02	5.04E-02	4.64E+00	1.60E+00	4.91E+00	1.91E+01	13.4208	4.64835	6.7104	2.324175
1.22E+04	0.199	0.0616	2.08E-01	-1.72E+01	2.81E+03	3.81E+00	-1.37E-01	6.00E+00	9	1.03E-02	4.98E-02	4.59E+00	1.43E+00	4.81E+00	1.72E+01	13.9101	4.30584	6.95505	2.15292
9.67E+03	0.204	0.0581	2.13E-01	-1.59E+01	2.81E+03	3.81E+00	-1.37E-01	6.00E+00	9	1.04E-02	4.90E-02	4.52E+00	1.29E+00	4.70E+00	1.59E+01	14.2596	4.06119	7.1298	2.030595
7.66E+03	0.21	0.056	2.18E-01	-1.49E+01	2.81E+03	3.81E+00	-1.20E-01	6.00E+00	9	1.04E-02	4.78E-02	4.44E+00	1.18E+00	4.59E+00	1.49E+01	14.679	3.9144	7.3395	1.9572
6.08E+03	0.216	0.0546	2.23E-01	-1.42E+01	2.81E+03	3.81E+00	-1.32E-01	6.00E+00	9	1.04E-02	4.65E-02	4.34E+00	1.10E+00	4.48E+00	1.42E+01	15.0984	3.81654	7.5492	1.90827
4.80E+03	0.222	0.0543	2.29E-01	-1.37E+01	2.81E+03	3.81E+00	-1.22E-01	6.00E+00	9	1.02E-02	4.46E-02	4.25E+00	1.04E+00	4.37E+00	1.37E+01	15.5178	3.79557	7.7589	1.897785
3.80E+03	0.229	0.0549	2.35E-01	-1.35E+01	2.81E+03	3.81E+00	-1.24E-01	6.00E+00	9	1.02E-02	4.31E-02	4.13E+00	9.92E-01	4.25E+00	1.35E+01	16.0071	3.83751	8.00355	1.918755
3.01E+03	0.236	0.0557	2.42E-01	-1.33E+01	2.81E+03	3.81E+00	-1.29E-01	6.00E+00	9	1.07E-02	4.42E-02	4.02E+00	9.50E-01	4.13E+00	1.33E+01	16.4964	3.89343	8.2482	1.946715
2.38E+03	0.243	0.0575	2.49E-01	-1.33E+01	2.81E+03	3.81E+00	-1.23E-01	6.00E+00	9	1.10E-02	4.41E-02	3.90E+00	9.26E-01	4.01E+00	1.33E+01	16.9857

Note: README.md
# EISFitting

##Recent Changes
- Now, 24 equivalent circuits are implemented. 
- Optional number of ZARC components (1,2,3)
- Optional inductance 
- Optional ZARC inductance
- The warburg element (modelling diffusion resistance) can now be placed either in series with the ZARCs or nested within the resistance branch of the low frequency ZARC. (this is called "warburg_inception".)

## Important Bugs Fixed
- the parameters 'Q warburg' and 'Q inductance' used to be outputted as 1/Q instead. This is now fixed. 
- Issues with model configurations and pretrained model not being updated have been solved, with internal testing added before release.

## The Paper
Analysis of Thousands of Electrochemical Impedance Spectra of Lithium-Ion Cells through a Machine Learning Inverse Model
by Sam Buteau and J. R. Dahn

doi: 10.1149/2.1051908jes
J. Electrochem. Soc. 2019 volume 166, issue 8, A1611-A1622

This repository was released together with a paper, which explains the approach taken and some of the terminology.

# Usage

The current version of the software comes with a pretrained model, 
and can be run on a given Folder. By running the code on a given Folder, 
1) all the recognised files will be imported into the internal database. 
(if a user wants to use a different format, 
only the import function needs to be rewritten to fill the database with the right data format)
2) the inverse model will be run all recognised spectra.
3) the finetuning will be run on the resulting parameters. 
4) the fits will be outputted as a png (plot) and as a CSV (for publication quality plotting), 
    and the circuit parameters extracted by these processes will be outputted to a CSV file 
    where each row represents a different impedance spectrum. Three sets of parameters are given.
    1) The parameters produced by the inverse model.
    2) The parameters produced by finetuning.
    3) The difference between the two. (this is a proxy for the uncertainty in those fitting parameters.)

## Typical usage
the command to be run, from the root of the project:
python manage.py eis_main --mode=import_process_output --logdir=OnePercentTraining --input_dir=RealData\EIS --dataset=USER7 --output_dir=OutputData10

this will look in the folder RealData/EIS for the spectra. 
it will process all the data and record it under a "dataset" called USER7. 
It will then output the results in a folder called OutputData10


## Separating the outputs and organizing data into datasets
If this command is run on different data with the same option for --dataset, 
the data will be stored in the same place and outputted all at once. 

If you want separate outputs, use different dataset options 
(i.e. --dataset=USER7 the first time and --dataset=USER8 the second time)


## Specifying a different inverse model
Furthermore, one can use different versions of the inverse_model. 
The model itself is contained in a folder. 
By default, a model which used only one percent of the data to 
train is provided in One

File: MPT_example.mpt
EC-Lab ASCII FILE
Nb header lines : 58

Potentio Electrochemical Impedance Spectroscopy

Run on channel : 6 (SN 13414)
User :
CE vs. WE compliance from -10 V to 10 V
Electrode connection : standard
Ewe ctrl range : min = 0.00 V, max = 5.00 V
Acquisition started on : 08/08/2018 18:44:05
Technique started on : 08/08/2018 19:44:18
Saved on :
	File : AK_EIS_78810_cycling_180808_04_PEIS_C06.mpr
	Directory : C:\EIS\Alison Keefe\
	Host : 192.168.0.2
Device : VMP3 (SN 0153)
Address : 192.168.0.3
EC-Lab for windows v11.10 (software)
Internet server v11.10 (firmware)
Command interpretor v11.10 (firmware)
Electrode material :
Initial state :
Electrolyte :
Comments :
Electrode surface area : 0.001 cm²
Characteristic mass : 0.001 g
Equivalent Weight : 0.000 g/eq.
Density : 0.000 g/cm3
Mode                Single sine
E (V)               0.0000
vs.                 Eoc
tE (h:m:s)          0:00:0.0000
record              0
dI                  0.000
unit dI             mA
dt (s)              0.000
fi                  100.000
unit fi             kHz
ff                  10.000
unit ff             mHz
Nd                  10
Points              per decade
spacing             Logarithmic
Va (mV)             10.0
pw                  0.10
Na                  1
corr                0
E range min (V)     0.000
E range max (V)     5.000
I Range             Auto
Bandwidth           5
nc cycles           0
goto Ns'            0
nr cycles           0
inc. cycle          0

freq/Hz	Re(Z)/Ohm	-Im(Z)/Ohm	|Z|/Ohm	Phase(Z)/deg	time/s	<Ewe>/V	<I>/mA	Cs/µF	Cp/µF	cycle number	I Range	|Ewe|/V	|I|/A	Re(Y)/Ohm-1	Im(Y)/Ohm-1	|Y|/Ohm-1	Phase(Y)/deg
100020	2.61893	1.62768	3.08352	-31.8612	3613.17	-0.00352401	0.192678	0.977612	0.272402	1	9	0.00918553	0.00297891	0.275441	0.171188	0.324304	31.8612
62675.8	2.89212	2.26758	3.67509	-38.0984	3613.83	-0.00341637	0.197069	1.11984	0.426331	1	9	0.0101228	0.00275444	0.214132	0.167891	0.272102	38.0984
39287.1	3.4063	3.22203	4.68875	-43.4076	3614.6	-0.00339548	0.196995	1.2573	0.593726	1	9	0.00998107	0.00212873	0.154942	0.14656	0.213277	43.4076
24619.1	4.31812	4.54361	6.26822	-46.4576	3615.41	-0.00318732	0.135469	1.42281	0.747585	1	10	0.0102553	0.00163608	0.109902	0.115641	0.159535	46.4576
15429.7	5.89886	6.07188	8.46548	-45.8281	3615.82	-0.003181	0.135419	1.69879	0.873944	1	10	0.00993789	0.00117393	0.0823124	0.0847267	0.118127	45.8281
9671.27	8.35415	7.44279	11.1887	-41.6981	3616.22	-0.00319434	0.135015	2.21106	0.978392	1	10	0.00991934	0.00088655	0.0667334	0.0594534	0.0893759	41.6981
6075.73	11.4319	8.07415	13.9957	-35.2329	3616.6	-0.00315163	0.144489	3.24433	1.07976	1	10	0.00931746	0.000665736	0.0583617	0.0412198	0.0714504	35.2329
3801.22	14.5638	7.80361	16.5227	-28.1834	3617.08	-0.00313708	0.143354	5.3654	1.19682	1	10	0.00905077	0.000547777	0.0533471	0.0285846	0.0605227	28.1834
2380.76	17.1145	6.95336	18.4731	-22.1111	3617.78	-0.00314196	0.142261	9.61412	1.36213	1	10	0.00981183	0.000531141	0.0501515	0.0203757	0.0541327	22.1111
1492.39	19.0229	5.94373	19.9298	-17.3515	3618.26	-0.00313812	0.142383	17.9423	1.59585	1	10	0.00976025	0.000489731	0.0478927	0.0149642	0.0501761	17.3515
935.299	20.4464	5.18005	21.0924	-14.2166	3618.73	-0.0031452	0.142362	32.8501	1.98131	1	10	0.00973502	0.000461542	0.0459585	0.0116435	0.0474105	14.2166
585.937	21.622	4.77004	22.1419	-12.4408	3619.21	-0.00314697	0.14185	56.9438	2.64279	1	10	0.00972762	0.000439331	0.0441028	0.00972957	0.0451633	12.4408
367.469	22.6591	4.62705	23.1267	-11.5413	3619.69	-0.00314453	0.141037	93.604	3.74694	1	10	0.00971976	0.000420283	0.0423658	0.00865123	0.0432401	11.5413
230.369	23.7119	4.80972	24.1948	-11.4663	3620.17	-0.00314265	0.140778	143.641	5.67639	1	10	0.00971895	0.000401695	0.0405063	0.00821628	0.0413312	11.4663
144.307	25.0194	5.32804	25.5804	-12.0219	3620.89	-0.00316358	0.129899	206.997	8.98016	1	11	0.00973176	0.000380438	0.038235	0.0081424	0.0390924	12.0219
90.4923	26.4195	6.05436	27.1043	-12.9072	3621.37	-0.00316171	0.129492	290.496	14.4944	1	11	0.00972226	0.000358698	0.0359623	0.00824122	0.0368945	12.9072
56.687	28.1205	7.00655	28.9802	-13.991	3621.84	-0.00316946	0.12907	400.712	23.4227	1	11	0.0097246	0.00033556	0.0334826	0.00834258	0.0345063	13.991
35.5575	30.0468	8.13367	31.1282	-15.147	3622.31	-0.00316333	0.12901	550.303	37.5722	1	11	0.00971982	0.000312251	0.0310091	0.00839419	0.0321252	15.147
22.2896	32.0493	9.39609	33.3983	-16.3399	3622.78	-0.0031638	0.128661	759.926	60.1474	1	11	0.00971052	0.000290749	0.0287323	0.00842361	0.0299417	16.3399
13.9509	33.9902	11.3357	35.8305	-18.4435	3623.3	-0.00315935	0.129454	1006.4	100.73	1	11	0.0097137	0.000271101	0.0264756	0.00882959	0.0279092	18.4435
8.7584	35.9541	14.541	38.7832	-22.02	3623.79	-0.00315849	0.129517	1249.69	175.672	1	11	0.00971945	0.00025061	0.0239035	0.00966733	0.0257844	22.02
5.48631	38.6508	20.0527	43.543	-27.421	3624.19	-0.0031594	0.12474	1446.66	306.814	1	11	0.00971613	0.000223139	0.0203855	0.0105763	0.0229658	27.421
3.4386	42.3979	27.9318	50.7717	-33.377	3624.81	-0.00316196	0.130438	1657.06	501.526	1	11	0.0097096	0.00019124	0.0164475	0.0108357	0.019696	33.377
2.15577	47.8904	40.1999	62.5262	-40.0106	3626.27	-0.00314535	0.132303	1836.51	759.135	1	12	0.00971844	0.00015543	0.0122497	0.0102825	0.0159933	40.0106
1.35118	59.1269	56.4597	81.7539	-43.6781	3627.76	-0.0031435	0.131228	2086.26	995.017	1	12	0.00971537	0.000118837	0.00884644	0.00844739	0.0122318	43.6781
0.845508	79.1977	75.8737	109.677	-43.772	3630.12	-0.00314164	0.13074	2480.91	1187.3	1	12	0.00971374	8.85666e-05	0.00658384	0.00630752	0.00911766	43.772
0.530596	109.931	95.0426	145.32	-40.8456	3633.87	-0.0031431	0.129175	3156	1349.97	1	12	0.00971276	6.68371e-05	0.00520558	0.00450057	0.00688137	40.8456
0.332588	150.297	103.348	182.401	-34.5135	3639.82	-0.00314557	0.127061	4630.31	1486.5	1	12	0.0097129	5.32504e-05	0.00451749	0.00310635	0.00548244	34.5135
0.208133	192.046	95.2632	214.376	-26.3834	3649.32	-0.00314769	0.124196	8026.99	1585.09	1	12	0.00971225	4.53048e-05	0.00417884	0.00207288	0.00466471	26.3834
0.130661	226.882	75.5893	239.143	-18.4263	3664.44	-0.00315068	0.12028	16114.4	1609.97	1	12	0.00971472	4.0623e-05	0.00396721	0.00132174	0.0041816	18.4263
0.0818594	252.575	57.6747	259.077	-12.8628	3688.56	-0.00314679	0.115241	33710.6	1670.63	1	12	0.0097128	3.74901e-05	0.003763	0.000859269	0.00385986	12.8628
0.0512698	264.596	48.319	268.972	-10.349	3727.04	-0.00314786	0.109212	64245.2	2073.3	1	12	0.00971313	3.61121e-05	0.00365738	0.000667889	0.00371786	10.349
0.0321494	262.732	40.067	265.769	-8.67089	3788.42	-0.00314849	0.101991	123555	2808.18	1	12	0.00971008	3.65357e-05	0.00371966	0.000567254	0.00376266	8.67089
0.0201769	259.925	25.8199	261.204	-5.67292	3886.27	-0.00314309	0.0933136	305500	2985.1	1	12	0.00971394	3.7189e-05	0.00380967	0.000378437	0.00382842	5.67292
0.0126334	268.948	13.4205	269.282	-2.85669	4042.38	-0.00314328	0.082978	938710	2331.59	1	12	0.0097112	3.60632e-05	0.00370896	0.000185077	0.00371357	2.85669
0.0100058	278.488	12.0634	278.749	-2.48035	4152.39	-0.0031337	0.0770713	1.31856e+06	2469.51	1	12	0.0097133	3.4846e-05	0.00358409	0.000155253	0.00358745	2.48035